{ "resourceType": "Bundle", "id": "MTP-7560000134425", "meta": { "lastUpdated": "2021-09-23T11:37:41.025+02:00", "profile": [ "http://fhir.ch/ig/ch-emed/StructureDefinition/ch-emed-document-medicationtreatmentplan" ] }, "identifier": { "system": "urn:ietf:rfc:3986", "value": "urn:uuid:MTP-7560000134425" }, "type": "document", "timestamp": "2021-09-23T11:37:41.049+02:00", "entry": [ { "fullUrl": "https://www.abilis-qi.int.abilis.ch/Composition/MTP-7560000134425", "resource": { "resourceType": "Composition", "id": "MTP-7560000134425", "language": "de-CH", "text": { "status": "extensions", "div": "
TODO
" }, "extension": [ { "url": "http://fhir.ch/ig/ch-core/StructureDefinition/ch-ext-epr-informationrecipient", "valueReference": { "reference": "Patient/7560000134425" } } ], "identifier": { "system": "urn:ietf:rfc:3986", "value": "urn:uuid:MTP-7560000134425" }, "status": "final", "type": { "coding": [ { "system": "http://loinc.org", "code": "77603-9", "display": "Medication treatment plan.extended" }, { "system": "http://snomed.info/sct", "code": "419891008", "display": "Record artifact (record artifact)" } ] }, "subject": { "reference": "Patient/7560000134425" }, "date": "2021-09-23T11:37:41+02:00", "author": [ { "reference": "Practitioner/23881", "extension": [ { "url": "http://fhir.ch/ig/ch-core/StructureDefinition/ch-ext-epr-time", "valueDateTime": "2021-09-23T11:37:41+02:00" } ] } ], "title": "Therapieentscheid Medikation", "confidentiality": "N", "_confidentiality": { "extension": [ { "url": "http://fhir.ch/ig/ch-core/StructureDefinition/ch-ext-epr-confidentialitycode", "valueCodeableConcept": { "coding": [ { "system": "http://snomed.info/sct", "code": "17621005", "display": "Normally accessible" } ] } } ] }, "custodian": { "reference": "Organization/14090" }, "section": [ { "title": "Medikamentöser Behandlungsplan", "code": { "coding": [ { "system": "http://loinc.org", "code": "77604-7", "display": "Medication treatment plan.brief" } ] }, "text": { "status": "generated", "div": "
TODO
" }, "entry": [ { "reference": "MedicationStatement/MTP-7560000134425" } ] } ] } }, { "fullUrl": "https://www.abilis-qi.int.abilis.ch/Patient/7560000134425", "resource": { "resourceType": "Patient", "id": "7560000134425", "text": { "status": "generated", "div": "
TODO
" }, "identifier": [ { "type": { "coding": [ { "system": "http://terminology.hl7.org/CodeSystem/v2-0203", "code": "MR" } ] }, "system": "urn:oid:2.16.756.5.30.388.2.2.1.1", "value": "7560000134425" } ], "name": [ { "family": "BARBOSA", "given": [ "CORINNE" ] } ], "gender": "female", "birthDate": "1963-09-13", "address": [ { "use": "work", "line": [ "rte du soleil levant 13", "Bât. B" ], "city": "Bulle", "postalCode": "1245 10", "country": "CH" } ] } }, { "fullUrl": "https://www.abilis-qi.int.abilis.ch/Practitioner/23881", "resource": { "resourceType": "Practitioner", "id": "23881", "text": { "status": "generated", "div": "
TODO
" }, "identifier": [ { "value": "23881" } ], "name": [ { "text": "99 Barras Nicolas", "family": "Barras", "given": [ "Nicolas" ] } ] } }, { "fullUrl": "https://www.abilis-qi.int.abilis.ch/Organization/14090", "resource": { "resourceType": "Organization", "id": "14090", "text": { "status": "generated", "div": "
TODO
" }, "identifier": [ { "system": "urn:oid:2.51.1.3", "value": "7601001007451" } ], "name": "Bora Bora OLS TACTIL", "address": [ { "use": "work", "line": [ "Rue Pedro Meylan 7", "Case postale 260" ], "city": "Genève 17", "postalCode": "1211", "country": "CH" } ] } }, { "fullUrl": "https://www.abilis-qi.int.abilis.ch/MedicationStatement/MTP-7560000134425", "resource": { "resourceType": "MedicationStatement", "id": "MTP-7560000134425", "text": { "status": "generated", "div": "
TODO
" }, "contained": [ { "resourceType": "Medication", "id": "med", "code": { "coding": [ { "system": "urn:oid:2.51.1.1", "code": "7680538310289", "display": "Plaquenil cpr pell 200 mg 30 pce" } ], "text": "Plaquenil cpr pell 200 mg 30 pce" }, "form": { "coding": [ { "system": "urn:oid:0.4.0.127.0.16.1.1.2.1", "code": "10219000", "display": "Tablet" } ], "text": "comprimé pelliculé" }, "amount": { "numerator": { "value": 30.0, "unit": "Stk", "system": "http://snomed.info/sct", "code": "732936001" }, "denominator": { "value": 1, "unit": "Package", "system": "http://unitsofmeasure.org", "code": "{Package}" } }, "ingredient": [ { "itemCodeableConcept": { "coding": [ { "system": "http://www.whocc.no/atc", "code": "P01BA02", "display": "Hydroxychloroquine" } ] }, "strength": { "numerator": { "value": 200, "unit": "MG", "system": "http://unitsofmeasure.org", "code": "mg" }, "denominator": { "value": 1 } } } ] } ], "extension": [ { "url": "http://hl7.org/fhir/StructureDefinition/narrativeLink", "valueUrl": "#padv.1" } ], "identifier": [ { "system": "urn:ietf:rfc:3986", "value": "urn:uuid:MTP-7560000134425" } ], "status": "completed", "medicationReference": { "reference": "#med" }, "subject": { "reference": "Patient/7560000134425" }, "reasonCode": [ { "text": "One reason", "extension": [ { "url": "http://hl7.org/fhir/StructureDefinition/narrativeLink", "valueUrl": "#padv.1.reason" } ] } ], "dosage": [ { "timing": { "repeat": { "boundsPeriod": { "start": "2021-08-03T00:00:00+02:00", "end": "2021-08-13T00:00:00+02:00" }, "when": [ "CM", "CD", "CV" ] } }, "route": { "coding": [ { "system": "urn:oid:0.4.0.127.0.16.1.1.2.1", "code": "20053000", "display": "Oral use" } ] }, "method": { "text": "action inconnue" }, "doseAndRate": [ { "doseQuantity": { "value": 1.0, "unit": "Stk", "system": "http://unitsofmeasure.org", "code": "{Unit}" } } ] } ] } } ] }